{
  "resourceType": "Bundle",
  "id": "get-all-meds",
  "meta": {
    "lastUpdated": "2017-03-28T16:01:11Z"
  },
  "type": "searchset",
  "total": 6,
  "link": [
    {
      "relation": "self",
      "url": "http://fhir3.healthintersections.com.au/open/MedicationStatement?search-id=e6c7f360-ffc5-4ea0-be38-f112e481fb&&patient=test2&_sort=_id"
    }
  ],
  "entry": [
    {
      "fullUrl": "http://fhir3.healthintersections.com.au/open/MedicationStatement/derivedfrom-mr-test2-1",
      "resource": {
        "resourceType": "MedicationStatement",
        "id": "derivedfrom-mr-test2-1",
        "meta": {
          "versionId": "2",
          "lastUpdated": "2017-03-28T15:55:55Z",
          "profile": [
            "http://hl7.org/fhir/us/core/StructureDefinition/us-core-medicationstatement"
          ]
        },
        "text": {
          "status": "generated",
          "div": "<div xmlns=\"http://www.w3.org/1999/xhtml\"><p><b>Generated Narrative with Details</b></p><p><b>id</b>: derivedfrom-mr-test2-1</p><p><b>meta</b>: </p><p><b>status</b>: active</p><p><b>medication</b>: Zocor (simvastatin) 20mg Tablet <span style=\"background: LightGoldenRodYellow\">(Details : {RxNorm code '104491' = '104491', given as 'Simvastatin 20 MG Oral Tablet [Zocor]'})</span></p><p><b>effective</b>: Jan 15, 2016, 12:00:00 AM --&gt; (ongoing)</p><p><b>dateAsserted</b>: Jan 25, 2016</p><p><b>informationSource</b>: Dr Cayr</p><p><b>subject</b>: <a href=\"Patient-test2.html\">Brian Z. Generated Summary: id: test2; Medical Record Number = 1032702 (USUAL); active; Brian Z ; ph: 555-555-5555(HOME); gender: male; birthDate: Jan 5, 1964</a></p><p><b>derivedFrom</b>: <a href=\"MedicationRequest-test2-1.html\">Generated Summary: id: test2-1; status: active; intent: order; <span title=\"Codes: {http://www.nlm.nih.gov/research/umls/rxnorm 104491}\">Zocor (simvastatin) 20mg Tablet</span>; authoredOn: Jan 15, 2016; <span title=\"Codes: {http://snomed.info/sct 13644009}\">Hypercholesterolemia (disorder)</span>; </a></p><p><b>taken</b>: na</p><p><b>reasonCode</b>: Hypercholesterolemia (disorder) <span style=\"background: LightGoldenRodYellow\">(Details : {SNOMED CT code '13644009' = '13644009', given as 'Hypercholesterolemia (disorder)'})</span></p><p><b>dosage</b>: </p></div>"
        },
        "status": "active",
        "medicationCodeableConcept": {
          "coding": [
            {
              "system": "http://www.nlm.nih.gov/research/umls/rxnorm",
              "code": "104491",
              "display": "Simvastatin 20 MG Oral Tablet [Zocor]",
              "userSelected": false
            }
          ],
          "text": "Zocor (simvastatin) 20mg Tablet"
        },
        "effectivePeriod": {
          "start": "2016-01-15"
        },
        "dateAsserted": "2016-01-25",
        "informationSource": {
          "display": "Dr Cayr"
        },
        "subject": {
          "reference": "Patient/test2",
          "display": "Brian Z"
        },
        "derivedFrom": [
          {
            "reference": "MedicationRequest/test2-1"
          }
        ],
        "taken": "na",
        "reasonCode": [
          {
            "coding": [
              {
                "system": "http://snomed.info/sct",
                "code": "13644009",
                "display": "Hypercholesterolemia (disorder)",
                "userSelected": false
              }
            ]
          }
        ],
        "dosage": [
          {
            "sequence": 1,
            "text": "40mg by mouth once daily",
            "asNeededBoolean": false,
            "route": {
              "coding": [
                {
                  "system": "http://ncimeta.nci.nih.gov",
                  "code": "C38288",
                  "display": "ORAL",
                  "userSelected": false
                }
              ]
            }
          }
        ]
      },
      "search": {
        "mode": "match"
      }
    },
    {
      "fullUrl": "http://fhir3.healthintersections.com.au/open/MedicationStatement/derivedfrom-mr-test2-2",
      "resource": {
        "resourceType": "MedicationStatement",
        "id": "derivedfrom-mr-test2-2",
        "meta": {
          "versionId": "2",
          "lastUpdated": "2017-03-28T15:58:01Z",
          "profile": [
            "http://hl7.org/fhir/us/core/StructureDefinition/us-core-medicationstatement"
          ]
        },
        "text": {
          "status": "generated",
          "div": "<div xmlns=\"http://www.w3.org/1999/xhtml\"><p><b>Generated Narrative with Details</b></p><p><b>id</b>: derivedfrom-mr-test2-2</p><p><b>meta</b>: </p><p><b>status</b>: active</p><p><b>medication</b>: Humulin R (insulin regular, human) U100  100units/ml inj solution <span style=\"background: LightGoldenRodYellow\">(Details : {RxNorm code '311036' = '311036', given as 'Humulin R (insulin regular, human) U100  100units/ml inj solution'})</span></p><p><b>effective</b>: Jul 1, 2015, 12:00:00 AM --&gt; (ongoing)</p><p><b>dateAsserted</b>: Jan 21, 2017</p><p><b>informationSource</b>: Dr Cayr</p><p><b>subject</b>: <a href=\"Patient-test2.html\">Brian Z. Generated Summary: id: test2; Medical Record Number = 1032702 (USUAL); active; Brian Z ; ph: 555-555-5555(HOME); gender: male; birthDate: Jan 5, 1964</a></p><p><b>derivedFrom</b>: <a href=\"MedicationRequest-test2-2.html\">Generated Summary: id: test2-2; status: active; intent: order; <span title=\"Codes: {http://www.nlm.nih.gov/research/umls/rxnorm 311036}\">Humulin R (insulin regular, human) U100  100units/ml inj solution</span>; authoredOn: Jul 1, 2015; </a></p><p><b>taken</b>: na</p><p><b>dosage</b>: </p></div>"
        },
        "status": "active",
        "medicationCodeableConcept": {
          "coding": [
            {
              "system": "http://www.nlm.nih.gov/research/umls/rxnorm",
              "code": "311036",
              "display": "Humulin R (insulin regular, human) U100  100units/ml inj solution",
              "userSelected": false
            }
          ],
          "text": "Humulin R (insulin regular, human) U100  100units/ml inj solution"
        },
        "effectivePeriod": {
          "start": "2015-07-01"
        },
        "dateAsserted": "2017-01-21",
        "informationSource": {
          "display": "Dr Cayr"
        },
        "subject": {
          "reference": "Patient/test2",
          "display": "Brian Z"
        },
        "derivedFrom": [
          {
            "reference": "MedicationRequest/test2-2"
          }
        ],
        "taken": "na",
        "dosage": [
          {
            "sequence": 1,
            "text": "10U every AM, 5U every PM, 5U at bedtime",
            "asNeededBoolean": false,
            "route": {
              "coding": [
                {
                  "system": "http://snomed.info/sct",
                  "code": "34206005",
                  "display": "Subcutaneous route (qualifier value)",
                  "userSelected": false
                }
              ]
            }
          }
        ]
      },
      "search": {
        "mode": "match"
      }
    },
    {
      "fullUrl": "http://fhir3.healthintersections.com.au/open/MedicationStatement/derivedfrom-mr-test2-3",
      "resource": {
        "resourceType": "MedicationStatement",
        "id": "derivedfrom-mr-test2-3",
        "meta": {
          "versionId": "2",
          "lastUpdated": "2017-03-28T16:00:39Z",
          "profile": [
            "http://hl7.org/fhir/us/core/StructureDefinition/us-core-medicationstatement"
          ]
        },
        "text": {
          "status": "generated",
          "div": "<div xmlns=\"http://www.w3.org/1999/xhtml\"><p><b>Generated Narrative with Details</b></p><p><b>id</b>: derivedfrom-mr-test2-3</p><p><b>meta</b>: </p><p><b>status</b>: completed</p><p><b>medication</b>: simvastatin 10mg Tablet <span style=\"background: LightGoldenRodYellow\">(Details : {RxNorm code '314231' = '314231', given as 'Simvastatin 10 MG Oral Tablet'})</span></p><p><b>effective</b>: Jun 12, 2015, 12:00:00 AM --&gt; Jan 15, 2016, 12:00:00 AM</p><p><b>dateAsserted</b>: Mar 15, 2017, 4:07:59 PM</p><p><b>informationSource</b>: Dr Cayr</p><p><b>subject</b>: <a href=\"Patient-test2.html\">Brian Z. Generated Summary: id: test2; Medical Record Number = 1032702 (USUAL); active; Brian Z ; ph: 555-555-5555(HOME); gender: male; birthDate: Jan 5, 1964</a></p><p><b>derivedFrom</b>: <a href=\"MedicationRequest-test2-3.html\">Generated Summary: id: test2-3; status: completed; intent: order; <span title=\"Codes: {http://www.nlm.nih.gov/research/umls/rxnorm 314231}\">simvastatin 10mg Tablet</span>; authoredOn: Jun 12, 2015; <span title=\"Codes: {http://snomed.info/sct 13644009}\">Hypercholesterolemia (disorder)</span>; </a></p><p><b>taken</b>: na</p><p><b>reasonCode</b>: Hypercholesterolemia (disorder) <span style=\"background: LightGoldenRodYellow\">(Details : {SNOMED CT code '13644009' = '13644009', given as 'Hypercholesterolemia (disorder)'})</span></p><p><b>dosage</b>: </p></div>"
        },
        "status": "completed",
        "medicationCodeableConcept": {
          "coding": [
            {
              "system": "http://www.nlm.nih.gov/research/umls/rxnorm",
              "code": "314231",
              "display": "Simvastatin 10 MG Oral Tablet",
              "userSelected": false
            }
          ],
          "text": "simvastatin 10mg Tablet"
        },
        "effectivePeriod": {
          "start": "2015-06-12",
          "end": "2016-01-15"
        },
        "dateAsserted": "2017-03-15T16:07:59.169-07:00",
        "informationSource": {
          "display": "Dr Cayr"
        },
        "subject": {
          "reference": "Patient/test2",
          "display": "Brian Z"
        },
        "derivedFrom": [
          {
            "reference": "MedicationRequest/test2-3"
          }
        ],
        "taken": "na",
        "reasonCode": [
          {
            "coding": [
              {
                "system": "http://snomed.info/sct",
                "code": "13644009",
                "display": "Hypercholesterolemia (disorder)",
                "userSelected": false
              }
            ]
          }
        ],
        "dosage": [
          {
            "sequence": 1,
            "text": "30mg (3 tablets) by mouth once daily",
            "asNeededBoolean": false,
            "route": {
              "coding": [
                {
                  "system": "http://ncimeta.nci.nih.gov",
                  "code": "C38288",
                  "display": "ORAL",
                  "userSelected": false
                }
              ]
            }
          }
        ]
      },
      "search": {
        "mode": "match"
      }
    },
    {
      "fullUrl": "http://fhir3.healthintersections.com.au/open/MedicationStatement/test2-1",
      "resource": {
        "resourceType": "MedicationStatement",
        "id": "test2-1",
        "meta": {
          "versionId": "2",
          "lastUpdated": "2017-03-28T15:49:10Z",
          "profile": [
            "http://hl7.org/fhir/us/core/StructureDefinition/us-core-medicationstatement"
          ]
        },
        "text": {
          "status": "generated",
          "div": "<div xmlns=\"http://www.w3.org/1999/xhtml\"><p><b>Generated Narrative with Details</b></p><p><b>id</b>: test2-1</p><p><b>meta</b>: </p><p><b>status</b>: completed</p><p><b>medication</b>: testosterone cypionate 100mg/ml inj <span style=\"background: LightGoldenRodYellow\">(Details : {RxNorm code '835829' = '835829', given as 'testosterone cypionate 100 MG/ML Injectable Solution'})</span></p><p><b>effective</b>: Sep 1, 2016</p><p><b>dateAsserted</b>: Sep 1, 2016</p><p><b>informationSource</b>: Dr. Cryn</p><p><b>subject</b>: <a href=\"Patient-test2.html\">Brian Z. Generated Summary: id: test2; Medical Record Number = 1032702 (USUAL); active; Brian Z ; ph: 555-555-5555(HOME); gender: male; birthDate: Jan 5, 1964</a></p><p><b>taken</b>: y</p></div>"
        },
        "status": "completed",
        "medicationCodeableConcept": {
          "coding": [
            {
              "system": "http://www.nlm.nih.gov/research/umls/rxnorm",
              "code": "835829",
              "display": "testosterone cypionate 100 MG/ML Injectable Solution",
              "userSelected": false
            }
          ],
          "text": "testosterone cypionate 100mg/ml inj"
        },
        "effectiveDateTime": "2016-09-01",
        "dateAsserted": "2016-09-01",
        "informationSource": {
          "display": "Dr. Cryn"
        },
        "subject": {
          "reference": "Patient/test2",
          "display": "Brian Z"
        },
        "taken": "y"
      },
      "search": {
        "mode": "match"
      }
    },
    {
      "fullUrl": "http://fhir3.healthintersections.com.au/open/MedicationStatement/test2-2",
      "resource": {
        "resourceType": "MedicationStatement",
        "id": "test2-2",
        "meta": {
          "versionId": "1",
          "lastUpdated": "2017-03-28T14:26:52Z",
          "profile": [
            "http://hl7.org/fhir/us/core/StructureDefinition/us-core-medicationstatement"
          ]
        },
        "text": {
          "status": "generated",
          "div": "<div xmlns=\"http://www.w3.org/1999/xhtml\"><p><b>Generated Narrative with Details</b></p><p><b>id</b>: test2-2</p><p><b>meta</b>: </p><p><b>status</b>: active</p><p><b>medication</b>: testosterone cypionate 100mg/ml inj <span style=\"background: LightGoldenRodYellow\">(Details : {RxNorm code '835829' = '835829', given as 'testosterone cypionate 100 MG/ML Injectable Solution'})</span></p><p><b>effective</b>: Sep 12, 2016, 12:00:00 AM --&gt; (ongoing)</p><p><b>dateAsserted</b>: Sep 12, 2016</p><p><b>informationSource</b>: Brian Z</p><p><b>subject</b>: <a href=\"Patient-test2.html\">Brian Z. Generated Summary: id: test2; Medical Record Number = 1032702 (USUAL); active; Brian Z ; ph: 555-555-5555(HOME); gender: male; birthDate: Jan 5, 1964</a></p><p><b>taken</b>: y</p><p><b>note</b>: Get at doctor's office every third Friday. Taking for energy level and drive.</p></div>"
        },
        "status": "active",
        "medicationCodeableConcept": {
          "coding": [
            {
              "system": "http://www.nlm.nih.gov/research/umls/rxnorm",
              "code": "835829",
              "display": "testosterone cypionate 100 MG/ML Injectable Solution",
              "userSelected": false
            }
          ],
          "text": "testosterone cypionate 100mg/ml inj"
        },
        "effectivePeriod": {
          "start": "2016-09-12"
        },
        "dateAsserted": "2016-09-12",
        "informationSource": {
          "display": "Brian Z"
        },
        "subject": {
          "reference": "Patient/test2",
          "display": "Brian Z"
        },
        "taken": "y",
        "note": [
          {
            "text": "Get at doctor's office every third Friday. Taking for energy level and drive."
          }
        ]
      },
      "search": {
        "mode": "match"
      }
    }
  ]
}